Folder: M1807-MLPS/HW5 - Prompt Engineering/data

Note: README.md
# M1807-MLPS
M1807 Machine Learning for Physical Systems [TUHH]

File: Concrete_Test_Data.csv
Cement (component 1)(kg in a m^3 mixture),Blast Furnace Slag (component 2)(kg in a m^3 mixture),Fly Ash (component 3)(kg in a m^3 mixture),Water  (component 4)(kg in a m^3 mixture),Superplasticizer (component 5)(kg in a m^3 mixture),Coarse Aggregate  (component 6)(kg in a m^3 mixture),Fine Aggregate (component 7)(kg in a m^3 mixture),Age (day),"Concrete compressive strength(MPa, megapascals) "
238.05,0.0,94.11,186.66,7.0,949.91,847.01,56,39.5897
181.9,272.8,0.0,185.7,0.0,1012.4,714.3,7,12.3726
289.0,0.0,0.0,192.0,0.0,913.2,895.3,3,11.6549
374.0,189.2,0.0,170.1,10.1,926.1,756.7,56,63.3973
229.97,0.0,118.31,195.47,4.63,1029.4,758.59,3,10.0319
297.16,0.0,117.54,174.8,9.52,1022.8,753.45,56,51.9589
295.71,0.0,95.64,171.54,8.87,955.14,859.2,56,48.7184
139.6,209.4,0.0,192.0,0.0,1047.0,806.9,180,44.2078
313.0,0.0,0.0,178.0,8.0,1000.0,822.0,28,25.0969
266.0,114.0,0.0,228.0,0.0,932.0,670.0,365,52.9083
273.0,105.0,82.0,210.0,9.0,904.0,680.0,28,37.1697
405.0,0.0,0.0,175.0,0.0,1120.0,695.0,28,52.3036
312.7,0.0,0.0,178.1,8.0,999.7,822.2,28,25.1038
246.83,0.0,125.08,143.3,11.99,1086.8,800.89,100,66.4241
401.8,94.7,0.0,147.4,11.4,946.8,852.1,91,75.4976
145.0,0.0,179.0,202.0,8.0,824.0,869.0,28,10.5352
304.0,76.0,0.0,228.0,0.0,932.0,670.0,365,55.2601
252.31,0.0,98.75,146.25,14.17,987.76,889.01,100,60.9497
469.0,117.2,0.0,137.8,32.2,852.1,840.5,3,40.1965
393.0,0.0,0.0,192.0,0.0,940.6,785.6,28,39.6049

File: Concrete_Train_Data.csv
Cement (component 1)(kg in a m^3 mixture),Blast Furnace Slag (component 2)(kg in a m^3 mixture),Fly Ash (component 3)(kg in a m^3 mixture),Water  (component 4)(kg in a m^3 mixture),Superplasticizer (component 5)(kg in a m^3 mixture),Coarse Aggregate  (component 6)(kg in a m^3 mixture),Fine Aggregate (component 7)(kg in a m^3 mixture),Age (day),"Concrete compressive strength(MPa, megapascals) "
374.0,189.2,0.0,170.1,10.1,926.1,756.7,3,34.398
229.97,0.0,118.31,195.47,4.63,1029.4,758.59,14,20.0844
225.0,0.0,0.0,181.0,0.0,1113.0,833.0,7,11.1695
198.6,132.4,0.0,192.0,0.0,978.4,825.5,90,38.0742
251.37,0.0,118.27,188.45,6.35,1028.4,757.73,14,24.4281
228.0,342.1,0.0,185.7,0.0,955.8,674.3,7,21.9171
300.0,0.0,0.0,184.0,0.0,1075.0,795.0,7,15.5753
213.72,98.05,24.51,181.71,6.86,1065.8,785.38,28,45.7054
393.0,0.0,0.0,192.0,0.0,940.6,785.6,90,48.8466
254.0,0.0,0.0,198.0,0.0,968.0,863.0,3,9.307926
170.3,155.5,0.0,185.7,0.0,1026.6,724.3,7,10.7303
307.0,0.0,0.0,193.0,0.0,968.0,812.0,365,36.1492
142.0,167.0,130.0,174.0,11.0,883.0,785.0,28,44.6091
213.5,0.0,174.24,159.21,11.66,1043.6,771.9,100,52.9587
297.8,137.2,106.9,201.3,6.0,878.4,655.3,28,53.5247
276.4,116.0,90.3,179.6,8.9,870.1,768.3,28,44.2844
252.1,97.1,75.6,193.8,8.3,835.5,821.4,28,33.3996
165.0,0.0,150.0,182.0,12.0,1023.0,729.0,28,18.0298
332.5,142.5,0.0,228.0,0.0,932.0,594.0,28,33.019
318.0,0.0,126.0,210.0,6.0,861.0,737.0,28,40.0586
141.3,212.0,0.0,203.5,0.0,971.8,748.5,3,4.82771
167.35,129.9,128.62,175.46,7.79,1006.3,746.6,3,14.9409
251.81,0.0,99.94,146.14,12.35,1006.0,899.76,100,45.3675
212.0,0.0,124.78,159.0,7.84,1085.4,799.54,14,31.3505
313.0,145.0,0.0,178.0,8.0,1002.0,689.0,28,41.0514
165.0,128.5,132.1,175.06,8.08,1005.8,746.6,14,33.088
388.6,97.1,0.0,157.9,12.1,852.1,925.7,7,34.9013
249.1,0.0,98.75,158.11,12.8,987.76,889.01,28,30.8472
229.97,0.0,118.31,195.47,4.63,1029.4,758.59,100,35.3425
323.7,282.8,0.0,183.8,10.3,942.7,659.9,7,49.8009
214.9,53.8,121.89,155.63,9.61,1014.3,780.58,14,38.6038
362.6,189.0,0.0,164.9,11.6,944.7,755.8,3,35.3012
250.2,166.8,0.0,203.5,0.0,977.6,694.1,7,19.3501
133.0,200.0,0.0,192.0,0.0,927.4,839.2,7,13.664
212.57,0.0,100.39,159.35,10.37,1003.8,903.79,28,37.4041
491.0,26.0,123.0,201.0,3.93,822.0,699.0,56,61.8558
149.0,139.0,109.0,193.0,6.0,892.0,780.0,28,23.6904
212.0,141.3,0.0,203.5,0.0,973.4,750.0,28,33.0038
212.52,0.0,100.37,159.32,8.71,1007.8,903.59,28,31.6401
339.0,0.0,0.0,185.0,0.0,1060.0,754.0,28,31.6469
212.57,0.0,100.39,159.35,10.37,1003.8,903.79,14,25.3727
296.0,0.0,107.0,221.0,11.0,819.0,778.0,28,31.4194
505.0,0.0,60.0,195.0,0.0,1030.0,630.0,28,64.0178
387.0,20.0,94.0,157.0,14.32,938.0,845.0,28,50.2352
321.0,164.0,0.0,190.0,5.0,870.0,774.0,28,57.2127
152.0,0.0,112.0,184.0,8.0,992.0,816.0,28,12.1761
385.0,0.0,136.0,158.0,20.0,903.0,768.0,28,55.5511
233.81,0.0,94.58,197.89,4.567,947.04,852.16,56,27.6618
331.0,0.0,0.0,192.0,0.0,879.0,825.0,3,13.5206
393.0,0.0,0.0,192.0,0.0,940.0,758.0,3,19.1054
139.6,209.4,0.0,192.0,0.0,1047.0,806.9,7,14.5893
116.0,173.0,0.0,192.0,0.0,909.8,891.9,3,6.28044
190.34,0.0,125.18,166.61,9.88,1079.0,798.9,56,31.7159
302.0,0.0,0.0,203.0,0.0,974.0,817.0,28,21.753
307.0,0.0,0.0,193.0,0.0,968.0,812.0,90,32.9225
252.0,0.0,0.0,185.0,0.0,1111.0,784.0,7,13.7137
222.36,0.0,96.67,189.29,4.46,967.08,870.32,3,11.5763
203.5,305.3,0.0,203.5,0.0,963.4,630.0,90,51.8638
190.0,190.0,0.0,228.0,0.0,932.0,670.0,270,50.6551
252.5,0.0,0.0,185.7,0.0,1111.6,784.3,28,19.7652
425.0,106.3,0.0,151.4,18.6,936.0,803.7,7,46.8016
332.5,142.5,0.0,228.0,0.0,932.0,594.0,365,41.0528
266.2,112.3,87.5,177.9,10.4,909.7,744.5,28,39.4215
339.0,0.0,0.0,197.0,0.0,968.0,781.0,3,13.2241
362.6,189.0,0.0,164.9,11.6,944.7,755.8,7,55.8958
156.0,178.0,187.0,221.0,7.0,854.0,614.0,28,29.413
165.0,0.02,143.57,163.81,0.0,1005.6,900.9,100,37.9557
389.9,189.0,0.0,145.9,22.0,944.7,755.8,28,74.4979
166.8,250.2,0.0,203.5,0.0,975.6,692.6,3,6.90234
182.04,45.21,121.97,170.21,8.19,1059.4,780.65,14,21.5048
190.68,0.0,125.4,162.14,7.77,1090.0,804.01,3,15.0444
144.0,136.0,106.0,178.0,7.0,941.0,774.0,28,26.1449
261.9,110.5,86.1,195.4,5.0,895.2,732.6,28,33.7188
333.0,0.0,0.0,192.0,0.0,931.2,842.6,90,41.6802
272.8,181.9,0.0,185.7,0.0,1012.4,714.3,28,31.3815
266.0,112.0,87.0,178.0,10.0,910.0,745.0,28,39.4173
183.9,122.6,0.0,203.5,0.0,959.2,800.0,28,24.0462
173.54,50.05,173.53,164.77,6.47,1006.2,793.5,14,33.0052
331.0,170.0,0.0,195.0,8.0,811.0,802.0,28,56.6129
236.0,157.0,0.0,192.0,0.0,972.6,749.1,90,47.7821